Si substrate, Herzinger et.al., JAP v83p3323y1998, (multi-wavelength, multi-sample analysis)
eV
e1e2
6.6	-6.003154	4.274203
6.58	-6.041721	4.330854
6.56	-6.080555	4.38768
6.54	-6.119697	4.444702
6.52	-6.159183	4.50194
6.5	-6.199059	4.559418
6.49	-6.219153	4.588255
6.48	-6.239355	4.617162
6.47	-6.259675	4.646142
6.46	-6.280122	4.675199
6.45	-6.300686	4.704337
6.44	-6.321383	4.73356
6.43	-6.342219	4.762873
6.42	-6.363189	4.79228
6.41	-6.384305	4.821785
6.4	-6.405572	4.851392
6.39	-6.426996	4.881108
6.38	-6.448574	4.910936
6.37	-6.470314	4.940883
6.36	-6.492221	4.970954
6.35	-6.514305	5.001153
6.34	-6.536567	5.031487
6.33	-6.559004	5.061961
6.32	-6.581626	5.092581
6.31	-6.604439	5.123355
6.3	-6.627446	5.154287
6.29	-6.650655	5.185384
6.28	-6.674067	5.216653
6.27	-6.697678	5.248101
6.26	-6.721504	5.279733
6.25	-6.745541	5.311558
6.24	-6.769793	5.343583
6.23	-6.794258	5.375815
6.22	-6.818957	5.408262
6.21	-6.84388	5.440931
6.2	-6.869032	5.47383
6.19	-6.894416	5.506967
6.18	-6.920032	5.540352
6.17	-6.945892	5.57399
6.16	-6.971996	5.607891
6.15	-6.998333	5.642064
6.14	-7.024924	5.676517
6.13	-7.051766	5.71126
6.12	-7.078861	5.746302
6.11	-7.106201	5.781652
6.1	-7.133803	5.817317
6.09	-7.161667	5.85331
6.08	-7.18978	5.88964
6.07	-7.21816	5.926316
6.06	-7.246802	5.963348
6.05	-7.275706	6.000746
6.04	-7.304884	6.038524
6.03	-7.33432	6.076687
6.02	-7.364023	6.115249
6.01	-7.394009	6.154219
6	-7.424269	6.193609
5.99	-7.454813	6.23343
5.98	-7.485623	6.273693
5.97	-7.516703	6.314411
5.96	-7.548053	6.355592
5.95	-7.579675	6.397253
5.94	-7.61156	6.4394
5.93	-7.643718	6.482052
5.92	-7.676142	6.525213
5.91	-7.708833	6.568902
5.9	-7.741786	6.61313
5.89	-7.775009	6.65791
5.88	-7.808493	6.703253
5.87	-7.842233	6.749174
5.86	-7.876242	6.795688
5.85	-7.910513	6.842807
5.84	-7.945038	6.890543
5.83	-7.979826	6.938916
5.82	-8.01487	6.987937
5.81	-8.050165	7.037621
5.8	-8.085716	7.087988
5.79	-8.121491	7.139049
5.78	-8.157505	7.190822
5.77	-8.193759	7.243329
5.76	-8.230249	7.296581
5.75	-8.266976	7.350599
5.74	-8.303935	7.405403
5.73	-8.341128	7.461009
5.72	-8.378556	7.517442
5.71	-8.416211	7.574715
5.7	-8.4541	7.632854
5.69	-8.49222	7.691884
5.68	-8.530572	7.75182
5.67	-8.569164	7.812689
5.66	-8.608001	7.874513
5.65	-8.647091	7.93732
5.64	-8.68646	8.001142
5.63	-8.726118	8.066008
5.62	-8.766118	8.131964
5.61	-8.806491	8.199053
5.6	-8.847299	8.267352
5.59	-8.888613	8.336951
5.58	-8.930519	8.40798
5.57	-8.973101	8.480617
5.56	-9.01644	8.555095
5.55	-9.060605	8.63173
5.54	-9.105597	8.710924
5.53	-9.151345	8.793157
5.52	-9.197636	8.878983
5.51	-9.244105	8.969019
5.5	-9.290159	9.063874
5.49	-9.334971	9.164091
5.48	-9.377464	9.270065
5.47	-9.416343	9.38195
5.46	-9.450144	9.499559
5.45	-9.477351	9.622295
5.44	-9.496506	9.749122
5.43	-9.506371	9.878532
5.42	-9.506071	10.00866
5.41	-9.495213	10.13734
5.4	-9.473981	10.26233
5.39	-9.443152	10.38141
5.38	-9.404047	10.49262
5.37	-9.358458	10.59441
5.36	-9.308472	10.68572
5.35	-9.256319	10.76608
5.34	-9.204204	10.83556
5.33	-9.154119	10.89473
5.32	-9.107778	10.94455
5.31	-9.066509	10.98626
5.3	-9.031244	11.02123
5.29	-9.002543	11.05084
5.28	-8.980635	11.07642
5.27	-8.965492	11.09913
5.26	-8.9569	11.11998
5.25	-8.954528	11.13979
5.24	-8.95798	11.15919
5.23	-8.966852	11.17867
5.22	-8.980755	11.19857
5.21	-8.999336	11.21917
5.2	-9.022292	11.24062
5.19	-9.049364	11.26306
5.18	-9.080338	11.28658
5.17	-9.115042	11.31123
5.16	-9.153345	11.33707
5.15	-9.195142	11.36413
5.14	-9.240357	11.39246
5.13	-9.288938	11.42209
5.12	-9.340851	11.45306
5.11	-9.396082	11.48541
5.1	-9.454633	11.51919
5.09	-9.516513	11.55445
5.08	-9.581753	11.59124
5.07	-9.650391	11.62964
5.06	-9.722469	11.66971
5.05	-9.798056	11.71155
5.04	-9.877198	11.75524
5.03	-9.959978	11.80089
5.02	-10.04647	11.84861
5.01	-10.13673	11.89854
5	-10.23088	11.95082
4.99	-10.32897	12.00559
4.98	-10.4311	12.06303
4.97	-10.53733	12.12331
4.96	-10.64778	12.18664
4.95	-10.7625	12.25321
4.94	-10.88156	12.32325
4.93	-11.00506	12.39698
4.92	-11.13305	12.47467
4.91	-11.2656	12.55656
4.9	-11.40275	12.64293
4.89	-11.54455	12.73407
4.88	-11.69105	12.83027
4.87	-11.84227	12.93186
4.86	-11.99824	13.03917
4.85	-12.15895	13.15251
4.84	-12.32443	13.27227
4.83	-12.49466	13.39881
4.82	-12.66961	13.5325
4.81	-12.84926	13.67375
4.8	-13.03354	13.82295
4.79	-13.22242	13.98054
4.78	-13.4158	14.14694
4.77	-13.6136	14.32262
4.76	-13.8157	14.50802
4.75	-14.02201	14.70363
4.74	-14.23237	14.90993
4.73	-14.44666	15.12744
4.72	-14.6647	15.35667
4.71	-14.88632	15.59814
4.7	-15.11136	15.85242
4.69	-15.33963	16.12008
4.68	-15.57095	16.4017
4.67	-15.80515	16.69793
4.66	-16.04209	17.00942
4.65	-16.28166	17.33697
4.64	-16.52373	17.68138
4.63	-16.76824	18.04366
4.62	-17.01513	18.425
4.61	-17.2643	18.82683
4.6	-17.51554	19.25092
4.59	-17.76845	19.69941
4.58	-18.02222	20.17481
4.57	-18.27551	20.68008
4.56	-18.52617	21.21843
4.55	-18.77098	21.79307
4.54	-19.00558	22.40706
4.53	-19.2243	23.06256
4.52	-19.42037	23.76048
4.51	-19.58636	24.49987
4.5	-19.71484	25.27754
4.49	-19.79935	26.08785
4.48	-19.83543	26.92332
4.47	-19.82151	27.77521
4.46	-19.75949	28.635
4.45	-19.65454	29.496
4.44	-19.51426	30.35471
4.43	-19.34709	31.21209
4.42	-19.1603	32.0737
4.41	-18.95774	32.94925
4.4	-18.73818	33.85087
4.39	-18.49421	34.79096
4.38	-18.21227	35.77958
4.37	-17.87381	36.82189
4.36	-17.45708	37.91653
4.35	-16.93981	39.05446
4.34	-16.30187	40.21902
4.33	-15.52771	41.38698
4.32	-14.60856	42.5301
4.31	-13.54344	43.61771
4.3	-12.33997	44.61895
4.29	-11.01371	45.50557
4.28	-9.587206	46.25408
4.27	-8.088153	46.84755
4.26	-6.547035	47.27673
4.25	-4.994889	47.54021
4.24	-3.460832	47.64395
4.23	-1.970422	47.59998
4.22	-0.5442792	47.42477
4.21	0.8024002	47.13743
4.2	2.059762	46.758
4.19	3.222767	46.30604
4.18	4.290227	45.79979
4.17	5.264163	45.25539
4.16	6.148678	44.68681
4.15	6.949382	44.10572
4.14	7.67276	43.52166
4.13	8.325717	42.94221
4.12	8.915253	42.37323
4.11	9.448221	41.81906
4.1	9.931094	41.28283
4.09	10.36997	40.76655
4.08	10.77033	40.27149
4.07	11.13719	39.79813
4.06	11.47495	39.34658
4.05	11.78751	38.91651
4.04	12.07826	38.50738
4.03	12.35021	38.11846
4.02	12.60592	37.74894
4.01	12.84765	37.39794
4	13.07737	37.06456
3.99	13.2968	36.7479
3.98	13.50742	36.44709
3.97	13.71057	36.16123
3.96	13.90737	35.88948
3.95	14.09885	35.63104
3.94	14.28587	35.38511
3.93	14.46919	35.15093
3.92	14.64947	34.92782
3.91	14.82726	34.71509
3.9	15.00304	34.51213
3.89	15.17723	34.31836
3.88	15.35015	34.13324
3.87	15.52209	33.95629
3.86	15.6933	33.78708
3.85	15.86396	33.62524
3.84	16.03423	33.47041
3.83	16.20423	33.32233
3.82	16.3741	33.18077
3.81	16.54391	33.04552
3.8	16.71375	32.91648
3.79	16.88368	32.79355
3.78	17.0538	32.67671
3.77	17.22416	32.56597
3.76	17.39488	32.46141
3.75	17.56604	32.36315
3.74	17.73778	32.27137
3.73	17.91025	32.18627
3.72	18.08364	32.10813
3.71	18.25818	32.03728
3.7	18.43413	31.97408
3.69	18.61181	31.91894
3.68	18.7916	31.87234
3.67	18.97395	31.83478
3.66	19.15935	31.80682
3.65	19.3484	31.78908
3.64	19.54175	31.78222
3.63	19.74013	31.78696
3.62	19.94437	31.80412
3.61	20.1554	31.83459
3.6	20.37421	31.87942
3.59	20.602	31.93984
3.58	20.84009	32.01732
3.57	21.09008	32.11365
3.56	21.35398	32.23106
3.55	21.6344	32.37226
3.54	21.93482	32.54051
3.53	22.26	32.73964
3.52	22.61654	32.9739
3.51	23.01344	33.24765
3.5	23.46292	33.56477
3.49	23.98111	33.92752
3.48	24.58865	34.33495
3.47	25.31062	34.78052
3.46	26.17564	35.24919
3.45	27.21325	35.71436
3.44	28.44932	36.13536
3.43	29.89975	36.457
3.42	31.56288	36.61217
3.41	33.41301	36.52856
3.4	35.39683	36.1389
3.39	37.43499	35.39326
3.38	39.43012	34.27005
3.37	41.27949	32.78273
3.36	42.89018	30.97944
3.35	44.1921	28.93601
3.34	45.14623	26.74359
3.33	45.74596	24.49498
3.32	46.01252	22.27232
3.31	45.98629	20.13994
3.3	45.71726	18.14163
3.29	45.25687	16.30198
3.28	44.6525	14.63067
3.27	43.94458	13.12673
3.26	43.16604	11.78282
3.25	42.3429	10.58825
3.24	41.49542	9.530922
3.23	40.63929	8.598468
3.22	39.78669	7.77882
3.21	38.94695	7.060424
3.2	38.12726	6.432417
3.19	37.33297	5.884574
3.18	36.56792	5.407375
3.17	35.83477	4.992016
3.16	35.1351	4.630362
3.15	34.4696	4.314969
3.14	33.83825	4.039096
3.13	33.2404	3.796665
3.12	32.67491	3.582279
3.11	32.14022	3.391196
3.1	31.63452	3.219325
3.09	31.1558	3.063192
3.08	30.70195	2.919909
3.07	30.27084	2.787128
3.06	29.86039	2.66298
3.05	29.46864	2.546027
3.04	29.09379	2.435181
3.03	28.73418	2.329642
3.02	28.38838	2.228832
3.01	28.05514	2.13234
3	27.73337	2.03987
2.99	27.42213	1.951202
2.98	27.12064	1.866168
2.97	26.8282	1.784631
2.96	26.54423	1.706471
2.95	26.26822	1.631581
2.94	25.9997	1.559857
2.93	25.73829	1.491201
2.92	25.48364	1.42552
2.91	25.23541	1.362715
2.9	24.99333	1.302697
2.89	24.75714	1.245376
2.88	24.52659	1.190658
2.87	24.30147	1.138459
2.86	24.08159	1.088693
2.85	23.86676	1.041276
2.84	23.65679	0.9961207
2.83	23.45154	0.9531495
2.82	23.25086	0.9122814
2.81	23.05461	0.873437
2.8	22.86266	0.8365411
2.79	22.67487	0.8015165
2.78	22.49115	0.76829
2.77	22.31137	0.7367896
2.76	22.13544	0.7069441
2.75	21.96325	0.6786839
2.74	21.7947	0.6519419
2.73	21.62973	0.6266514
2.72	21.46823	0.6027477
2.71	21.31012	0.5801681
2.7	21.15532	0.5588508
2.69	21.00375	0.5387357
2.68	20.85532	0.5197641
2.67	20.70997	0.5018789
2.66	20.56762	0.4850246
2.65	20.4282	0.4691478
2.64	20.29165	0.4541952
2.63	20.15789	0.4401164
2.62	20.02687	0.4268623
2.61	19.8985	0.4143842
2.6	19.77275	0.4026367
2.59	19.64953	0.3915745
2.58	19.5288	0.3811547
2.57	19.41049	0.3713354
2.56	19.29454	0.3620765
2.55	19.18088	0.3533393
2.54	19.06947	0.3450868
2.53	18.96025	0.3372833
2.52	18.85316	0.3298948
2.51	18.74816	0.3228887
2.5	18.64519	0.3162344
2.49	18.54421	0.309902
2.48	18.44515	0.303864
2.47	18.34797	0.2980939
2.46	18.25262	0.2925666
2.45	18.15905	0.287259
2.44	18.06722	0.2821493
2.43	17.97706	0.2772173
2.42	17.88854	0.2724442
2.41	17.80161	0.2678127
2.4	17.71622	0.2633072
2.39	17.63233	0.2589133
2.38	17.54991	0.2546183
2.37	17.46889	0.2504109
2.36	17.38925	0.2462808
2.35	17.31095	0.2422195
2.34	17.23394	0.2382195
2.33	17.15819	0.2342746
2.32	17.08366	0.2303794
2.31	17.01032	0.2265296
2.3	16.93813	0.2227219
2.29	16.86707	0.2189534
2.28	16.79709	0.2152221
2.27	16.72819	0.2115265
2.26	16.66032	0.2078654
2.25	16.59348	0.2042379
2.24	16.52765	0.2006435
2.23	16.46278	0.1970817
2.22	16.39887	0.1935523
2.21	16.33588	0.1900551
2.2	16.27379	0.18659
2.19	16.21259	0.1831569
2.18	16.15224	0.1797559
2.17	16.09274	0.1763867
2.16	16.03405	0.1730496
2.15	15.97617	0.1697443
2.14	15.91908	0.166471
2.13	15.86276	0.1632297
2.12	15.80718	0.1600202
2.11	15.75235	0.1568427
2.1	15.69824	0.1536972
2.09	15.64484	0.1505836
2.08	15.59212	0.1475019
2.07	15.54009	0.1444521
2.06	15.48873	0.1414343
2.05	15.43801	0.1384484
2.04	15.38794	0.1354945
2.03	15.3385	0.1325725
2.02	15.28968	0.1296824
2.01	15.24146	0.1268242
2	15.19384	0.123998
1.99	15.1468	0.1212038
1.98	15.10034	0.1184414
1.97	15.05444	0.115711
1.96	15.0091	0.1130125
1.95	14.9643	0.110346
1.94	14.92004	0.1077114
1.93	14.8763	0.1051087
1.92	14.83308	0.102538
1.91	14.79037	0.09999921
1.9	14.74816	0.09749233
1.89	14.70645	0.0950174
1.88	14.66521	0.09257441
1.87	14.62446	0.09016334
1.86	14.58417	0.08778423
1.85	14.54435	0.08543704
1.84	14.50499	0.08312178
1.83	14.46608	0.08083847
1.82	14.42761	0.07858705
1.81	14.38958	0.07636762
1.8	14.35198	0.07418011
1.79	14.31481	0.0720245
1.78	14.27805	0.06990087
1.77	14.2417	0.06780914
1.76	14.20577	0.06574937
1.75	14.17023	0.06372152
1.74	14.13509	0.0617256
1.73	14.10033	0.05976164
1.72	14.06597	0.0578296
1.71	14.03198	0.05592949
1.7	13.99836	0.05406131
1.69	13.96512	0.05222507
1.68	13.93224	0.05042078
1.67	13.89972	0.0486484
1.66	13.86756	0.04690797
1.65	13.83574	0.04519947
1.64	13.80427	0.0435229
1.63	13.77315	0.04187828
1.62	13.74235	0.04026558
1.61	13.7119	0.03868482
1.6	13.68177	0.03713599
1.59	13.65197	0.0356191
1.58	13.62248	0.03413414
1.57	13.59332	0.03268111
1.56	13.56447	0.03126003
1.55	13.53593	0.02987087
1.54	13.5077	0.02851365
1.53	13.47977	0.02718837
1.52	13.45214	0.02589502
1.51	13.42481	0.02463359
1.5	13.39777	0.02340412
1.49	13.37103	0.02220658
1.48	13.34457	0.02104097
1.47	13.3184	0.01990729
1.46	13.29251	0.01880555
1.45	13.2669	0.01773573
1.44	13.24157	0.01669786
1.43	13.21651	0.01569192
1.42	13.19172	0.01471792
1.41	13.1672	0.01377585
1.4	13.14295	0.01286572
1.39	13.11897	0.01198751
1.38	13.09524	0.01114125
1.37	13.07178	0.01032692
1.36	13.04857	0.009544512
1.35	13.02562	0.00879405
1.34	13.00292	0.008075525
1.33	12.98048	0.007388929
1.32	12.95828	0.006734272
1.31	12.93634	0.006111549
1.3	12.91463	0.005520747
1.29	12.89318	0.004961882
1.28	12.87196	0.004434939
1.27	12.85099	0.003939909
1.26	12.83026	0.003476772
1.25	12.80977	0.003045494
1.24	12.78952	0.002646028
1.23	12.7695	0.002278283
1.22	12.74972	0.001942119
1.21	12.73017	0.001637321
1.2	12.71086	0.001363552
1.19	12.69178	0.001120321
1.18	12.67294	0.0009069202
1.17	12.65433	0.0007223655
1.16	12.63595	0.0005653467
1.15	12.61781	0.0004341832
1.14	12.59991	0.0003268211
1.13	12.58223	0.000240871
1.12	12.56479	0.0001736798
1.11	12.54758	0.0001224562
1.1	12.53059	8.440727e-005
1.09	12.51384	5.688252e-005
1.08	12.49731	3.748945e-005
1.07	12.48099	2.417555e-005
1.06	12.4649	1.526173e-005
1.05	12.44902	9.43575e-006
1.04	12.43336	5.714574e-006
1.03	12.4179	3.389924e-006
1.02	12.40265	1.968831e-006
1.01	12.3876	1.118701e-006
1	12.37275	0
0.99	12.3581	0
0.98	12.34365	0
0.97	12.32939	0
0.96	12.31533	0
0.95	12.30145	0
0.94	12.28776	0
0.93	12.27426	0
0.92	12.26095	0
0.91	12.24782	0
0.9	12.23486	0
0.89	12.22209	0
0.88	12.2095	0
0.87	12.19708	0
0.86	12.18484	0
0.85	12.17278	0
0.84	12.16089	0
0.83	12.14916	0
0.82	12.13761	0
0.81	12.12623	0
0.8	12.11502	0
0.79	12.10397	0
0.78	12.09308	0
0.77	12.08237	0
0.76	12.07181	0
0.75	12.06142	0
0.74	12.05119	0
0.73	12.04111	0
0.72	12.0312	0
0.71	12.02144	0
0.7	12.01185	0
0.69	12.0024	0
0.68	11.99311	0
0.67	11.98398	0
0.66	11.975	0
0.65	11.96617	0
0.64	11.9575	0
0.63	11.94897	0
0.62	11.94059	0
0.61	11.93237	0
0.6	11.92429	0
0.59	11.91636	0
0.58	11.90857	0
0.57	11.90093	0
0.56	11.89344	0
0.55	11.88609	0
0.54	11.87889	0
0.53	11.87183	0
0.52	11.86491	0
0.51	11.85813	0
0.5	11.8515	0
0.49	11.845	0
0.48	11.83865	0
0.47	11.83243	0
0.46	11.82636	0
0.45	11.82042	0
0.44	11.81462	0
0.43	11.80896	0
0.42	11.80343	0
0.41	11.79804	0
0.4	11.79279	0
0.39	11.78767	0
0.38	11.78269	0
0.37	11.77784	0
0.36	11.77313	0
0.35	11.76855	0
0.34	11.76411	0
0.33	11.75979	0
0.32	11.75561	0
0.31	11.75157	0
0.3	11.74765	0
0.29	11.74387	0
0.28	11.74021	0
0.27	11.73669	0
0.26	11.7333	0
0.25	11.73004	0
0.24	11.72691	0
0.23	11.72391	0
0.22	11.72103	0
0.21	11.71829	0
0.2	11.71568	0