Your edit line - do NOT delete this line
Wavelength [nm], Voltage [V], Elapsed time [s]
900.0	4.3e-06	12.6870000362
910.0	4.5e-06	14.4689998627
920.0	4.3e-06	16.2660000324
930.0	4.5e-06	18.0160000324
940.0	4.3e-06	19.7969999313
950.0	4.3e-06	21.5780000687
960.0	4.3e-06	23.3439998627
970.0	4.3e-06	25.1089999676
980.0	4.3e-06	26.875
990.0	4.5e-06	28.6410000324
1000.0	4.5e-06	30.3910000324
1010.0	4.5e-06	32.1559998989
1020.0	4.3e-06	33.9219999313
1030.0	4.3e-06	35.6719999313
